Trial	CorrectionTrial?	StartTime	CenterReward?	F1	F2	F3	F4	HoldTime	Atten	Pitch	Side	Response	RespTime	Correct	
1	0	2.602	0	-1	-1	-1	-1	2.000077e-001	20.0	9600.000	-1	-1.000	-1
2	0	3.902	0	-1	-1	-1	-1	2.000077e-001	20.0	15239.050	-1	-1.000	-1
3	0	5.201	0	-1	-1	-1	-1	2.000077e-001	30.0	188.988	-1	-1.000	-1
4	0	6.402	0	-1	-1	-1	-1	2.000077e-001	10.0	2400.000	-1	-1.000	-1
5	0	7.707	0	-1	-1	-1	-1	2.000077e-001	40.0	6047.621	-1	-1.000	-1
6	0	9.017	0	-1	-1	-1	-1	2.000077e-001	10.0	1200.000	-1	-1.000	-1
7	0	10.302	0	-1	-1	-1	-1	2.000077e-001	0.0	15239.050	-1	-1.000	-1
8	0	11.502	0	-1	-1	-1	-1	2.000077e-001	10.0	600.000	-1	-1.000	-1
9	0	12.702	0	-1	-1	-1	-1	2.000077e-001	30.0	12095.242	-1	-1.000	-1
10	0	13.903	0	-1	-1	-1	-1	2.000077e-001	20.0	1200.000	-1	-1.000	-1
11	0	15.102	0	-1	-1	-1	-1	2.000077e-001	30.0	1511.905	-1	-1.000	-1
12	0	16.302	0	-1	-1	-1	-1	2.000077e-001	10.0	7619.525	-1	-1.000	-1
13	0	17.502	0	-1	-1	-1	-1	2.000077e-001	30.0	755.953	-1	-1.000	-1
14	0	18.702	0	-1	-1	-1	-1	2.000077e-001	0.0	377.976	-1	-1.000	-1
15	0	19.902	0	-1	-1	-1	-1	2.000077e-001	10.0	188.988	-1	-1.000	-1
16	0	21.103	0	-1	-1	-1	-1	2.000077e-001	40.0	150.000	-1	-1.000	-1
17	0	22.301	0	-1	-1	-1	-1	2.000077e-001	0.0	238.110	-1	-1.000	-1
18	0	23.502	0	-1	-1	-1	-1	2.000077e-001	20.0	12095.242	-1	-1.000	-1
19	0	24.702	0	-1	-1	-1	-1	2.000077e-001	30.0	150.000	-1	-1.000	-1
20	0	25.902	0	-1	-1	-1	-1	2.000077e-001	40.0	238.110	-1	-1.000	-1
21	0	27.202	0	-1	-1	-1	-1	2.000077e-001	0.0	1904.881	-1	-1.000	-1
22	0	28.502	0	-1	-1	-1	-1	2.000077e-001	30.0	7619.525	-1	-1.000	-1
23	0	29.803	0	-1	-1	-1	-1	2.000077e-001	20.0	3809.763	-1	-1.000	-1
24	0	31.103	0	-1	-1	-1	-1	2.000077e-001	20.0	476.220	-1	-1.000	-1
25	0	32.403	0	-1	-1	-1	-1	2.000077e-001	0.0	952.441	-1	-1.000	-1
26	0	33.702	0	-1	-1	-1	-1	2.000077e-001	10.0	4800.000	-1	-1.000	-1
27	0	35.010	0	-1	-1	-1	-1	2.000077e-001	10.0	1511.905	-1	-1.000	-1
28	0	36.318	0	-1	-1	-1	-1	2.000077e-001	20.0	150.000	-1	-1.000	-1
29	0	37.602	0	-1	-1	-1	-1	2.000077e-001	10.0	3809.763	-1	-1.000	-1
30	0	38.803	0	-1	-1	-1	-1	2.000077e-001	30.0	300.000	-1	-1.000	-1
31	0	40.002	0	-1	-1	-1	-1	2.000077e-001	10.0	19200.000	-1	-1.000	-1
32	0	41.202	0	-1	-1	-1	-1	2.000077e-001	10.0	238.110	-1	-1.000	-1
33	0	42.402	0	-1	-1	-1	-1	2.000077e-001	30.0	4800.000	-1	-1.000	-1
34	0	43.602	0	-1	-1	-1	-1	2.000077e-001	30.0	6047.621	-1	-1.000	-1
35	0	44.802	0	-1	-1	-1	-1	2.000077e-001	30.0	377.976	-1	-1.000	-1
36	0	46.002	0	-1	-1	-1	-1	2.000077e-001	40.0	188.988	-1	-1.000	-1
37	0	47.202	0	-1	-1	-1	-1	2.000077e-001	10.0	3023.811	-1	-1.000	-1
38	0	48.402	0	-1	-1	-1	-1	2.000077e-001	0.0	1511.905	-1	-1.000	-1
39	0	49.602	0	-1	-1	-1	-1	2.000077e-001	0.0	188.988	-1	-1.000	-1
40	0	50.803	0	-1	-1	-1	-1	2.000077e-001	40.0	952.441	-1	-1.000	-1
41	0	52.003	0	-1	-1	-1	-1	2.000077e-001	30.0	2400.000	-1	-1.000	-1
42	0	53.203	0	-1	-1	-1	-1	2.000077e-001	0.0	9600.000	-1	-1.000	-1
43	0	54.503	0	-1	-1	-1	-1	2.000077e-001	40.0	755.953	-1	-1.000	-1
44	0	55.803	0	-1	-1	-1	-1	2.000077e-001	30.0	238.110	-1	-1.000	-1
45	0	57.103	0	-1	-1	-1	-1	2.000077e-001	0.0	4800.000	-1	-1.000	-1
46	0	58.402	0	-1	-1	-1	-1	2.000077e-001	30.0	952.441	-1	-1.000	-1
47	0	59.702	0	-1	-1	-1	-1	2.000077e-001	40.0	1904.881	-1	-1.000	-1
48	0	61.005	0	-1	-1	-1	-1	2.000077e-001	10.0	952.441	-1	-1.000	-1
49	0	62.309	0	-1	-1	-1	-1	2.000077e-001	0.0	600.000	-1	-1.000	-1
50	0	63.621	0	-1	-1	-1	-1	2.000077e-001	20.0	1904.881	-1	-1.000	-1
51	0	64.903	0	-1	-1	-1	-1	2.000077e-001	20.0	238.110	-1	-1.000	-1
52	0	66.103	0	-1	-1	-1	-1	2.000077e-001	40.0	19200.000	-1	-1.000	-1
53	0	67.302	0	-1	-1	-1	-1	2.000077e-001	40.0	3809.763	-1	-1.000	-1
54	0	68.503	0	-1	-1	-1	-1	2.000077e-001	0.0	3809.763	-1	-1.000	-1
55	0	69.703	0	-1	-1	-1	-1	2.000077e-001	40.0	3023.811	-1	-1.000	-1
56	0	70.902	0	-1	-1	-1	-1	2.000077e-001	0.0	1200.000	-1	-1.000	-1
57	0	72.103	0	-1	-1	-1	-1	2.000077e-001	30.0	3023.811	-1	-1.000	-1
58	0	73.303	0	-1	-1	-1	-1	2.000077e-001	0.0	2400.000	-1	-1.000	-1
59	0	74.503	0	-1	-1	-1	-1	2.000077e-001	20.0	300.000	-1	-1.000	-1
60	0	75.702	0	-1	-1	-1	-1	2.000077e-001	0.0	476.220	-1	-1.000	-1
61	0	76.902	0	-1	-1	-1	-1	2.000077e-001	40.0	2400.000	-1	-1.000	-1
62	0	78.103	0	-1	-1	-1	-1	2.000077e-001	40.0	476.220	-1	-1.000	-1
63	0	79.303	0	-1	-1	-1	-1	2.000077e-001	10.0	1904.881	-1	-1.000	-1
64	0	80.603	0	-1	-1	-1	-1	2.000077e-001	10.0	377.976	-1	-1.000	-1
65	0	81.903	0	-1	-1	-1	-1	2.000077e-001	20.0	19200.000	-1	-1.000	-1
66	0	83.203	0	-1	-1	-1	-1	2.000077e-001	20.0	952.441	-1	-1.000	-1
67	0	84.503	0	-1	-1	-1	-1	2.000077e-001	30.0	15239.050	-1	-1.000	-1
68	0	85.803	0	-1	-1	-1	-1	2.000077e-001	30.0	476.220	-1	-1.000	-1
69	0	87.103	0	-1	-1	-1	-1	2.000077e-001	0.0	19200.000	-1	-1.000	-1
70	0	88.409	0	-1	-1	-1	-1	2.000077e-001	10.0	9600.000	-1	-1.000	-1
71	0	89.719	0	-1	-1	-1	-1	2.000077e-001	10.0	15239.050	-1	-1.000	-1
72	0	91.004	0	-1	-1	-1	-1	2.000077e-001	20.0	7619.525	-1	-1.000	-1
73	0	92.204	0	-1	-1	-1	-1	2.000077e-001	0.0	300.000	-1	-1.000	-1
74	0	93.402	0	-1	-1	-1	-1	2.000077e-001	20.0	2400.000	-1	-1.000	-1
75	0	94.603	0	-1	-1	-1	-1	2.000077e-001	20.0	377.976	-1	-1.000	-1
76	0	95.802	0	-1	-1	-1	-1	2.000077e-001	30.0	19200.000	-1	-1.000	-1
77	0	97.003	0	-1	-1	-1	-1	2.000077e-001	0.0	7619.525	-1	-1.000	-1
78	0	98.203	0	-1	-1	-1	-1	2.000077e-001	30.0	600.000	-1	-1.000	-1
79	0	99.403	0	-1	-1	-1	-1	2.000077e-001	10.0	476.220	-1	-1.000	-1
80	0	100.603	0	-1	-1	-1	-1	2.000077e-001	10.0	755.953	-1	-1.000	-1
81	0	101.803	0	-1	-1	-1	-1	2.000077e-001	40.0	1511.905	-1	-1.000	-1
82	0	103.003	0	-1	-1	-1	-1	2.000077e-001	0.0	755.953	-1	-1.000	-1
83	0	104.203	0	-1	-1	-1	-1	2.000077e-001	30.0	1200.000	-1	-1.000	-1
84	0	105.404	0	-1	-1	-1	-1	2.000077e-001	20.0	755.953	-1	-1.000	-1
85	0	106.604	0	-1	-1	-1	-1	2.000077e-001	30.0	1904.881	-1	-1.000	-1
86	0	107.803	0	-1	-1	-1	-1	2.000077e-001	30.0	3809.763	-1	-1.000	-1
87	0	109.004	0	-1	-1	-1	-1	2.000077e-001	20.0	1511.905	-1	-1.000	-1
88	0	110.303	0	-1	-1	-1	-1	2.000077e-001	40.0	9600.000	-1	-1.000	-1
89	0	111.604	0	-1	-1	-1	-1	2.000077e-001	20.0	6047.621	-1	-1.000	-1
90	0	112.903	0	-1	-1	-1	-1	2.000077e-001	0.0	150.000	-1	-1.000	-1
91	0	114.203	0	-1	-1	-1	-1	2.000077e-001	40.0	12095.242	-1	-1.000	-1
92	0	115.404	0	-1	-1	-1	-1	2.000077e-001	30.0	9600.000	-1	-1.000	-1
93	0	116.703	0	-1	-1	-1	-1	2.000077e-001	40.0	4800.000	-1	-1.000	-1
94	0	118.004	0	-1	-1	-1	-1	2.000077e-001	20.0	600.000	-1	-1.000	-1
95	0	119.314	0	-1	-1	-1	-1	2.000077e-001	0.0	6047.621	-1	-1.000	-1
96	0	120.629	0	-1	-1	-1	-1	2.000077e-001	20.0	4800.000	-1	-1.000	-1
97	0	121.903	0	-1	-1	-1	-1	2.000077e-001	10.0	12095.242	-1	-1.000	-1
98	0	123.103	0	-1	-1	-1	-1	2.000077e-001	20.0	188.988	-1	-1.000	-1
99	0	124.303	0	-1	-1	-1	-1	2.000077e-001	40.0	600.000	-1	-1.000	-1
100	0	125.504	0	-1	-1	-1	-1	2.000077e-001	40.0	7619.525	-1	-1.000	-1
101	0	126.704	0	-1	-1	-1	-1	2.000077e-001	10.0	300.000	-1	-1.000	-1
102	0	127.903	0	-1	-1	-1	-1	2.000077e-001	10.0	6047.621	-1	-1.000	-1
103	0	129.103	0	-1	-1	-1	-1	2.000077e-001	40.0	300.000	-1	-1.000	-1
104	0	130.303	0	-1	-1	-1	-1	2.000077e-001	40.0	15239.050	-1	-1.000	-1
105	0	131.503	0	-1	-1	-1	-1	2.000077e-001	0.0	3023.811	-1	-1.000	-1
106	0	132.703	0	-1	-1	-1	-1	2.000077e-001	20.0	3023.811	-1	-1.000	-1
107	0	133.904	0	-1	-1	-1	-1	2.000077e-001	0.0	12095.242	-1	-1.000	-1
108	0	135.204	0	-1	-1	-1	-1	2.000077e-001	40.0	377.976	-1	-1.000	-1
109	0	136.503	0	-1	-1	-1	-1	2.000077e-001	10.0	150.000	-1	-1.000	-1
110	0	137.704	0	-1	-1	-1	-1	2.000077e-001	40.0	1200.000	-1	-1.000	-1
111	0	139.204	0	-1	-1	-1	-1	2.000077e-001	0.0	238.110	-1	-1.000	-1
112	0	140.505	0	-1	-1	-1	-1	2.000077e-001	30.0	7619.525	-1	-1.000	-1
113	0	141.809	0	-1	-1	-1	-1	2.000077e-001	20.0	476.220	-1	-1.000	-1
114	0	143.126	0	-1	-1	-1	-1	2.000077e-001	40.0	12095.242	-1	-1.000	-1
115	0	144.405	0	-1	-1	-1	-1	2.000077e-001	20.0	15239.050	-1	-1.000	-1
116	0	145.603	0	-1	-1	-1	-1	2.000077e-001	0.0	755.953	-1	-1.000	-1
117	0	146.803	0	-1	-1	-1	-1	2.000077e-001	30.0	19200.000	-1	-1.000	-1
118	0	148.003	0	-1	-1	-1	-1	2.000077e-001	40.0	4800.000	-1	-1.000	-1
119	0	149.203	0	-1	-1	-1	-1	2.000077e-001	40.0	6047.621	-1	-1.000	-1
120	0	150.404	0	-1	-1	-1	-1	2.000077e-001	40.0	7619.525	-1	-1.000	-1
121	0	151.603	0	-1	-1	-1	-1	2.000077e-001	30.0	2400.000	-1	-1.000	-1
122	0	152.804	0	-1	-1	-1	-1	2.000077e-001	30.0	9600.000	-1	-1.000	-1
123	0	154.004	0	-1	-1	-1	-1	2.000077e-001	30.0	952.441	-1	-1.000	-1
124	0	155.204	0	-1	-1	-1	-1	2.000077e-001	20.0	12095.242	-1	-1.000	-1
125	0	156.404	0	-1	-1	-1	-1	2.000077e-001	20.0	1200.000	-1	-1.000	-1
126	0	157.604	0	-1	-1	-1	-1	2.000077e-001	10.0	1200.000	-1	-1.000	-1
127	0	158.805	0	-1	-1	-1	-1	2.000077e-001	0.0	19200.000	-1	-1.000	-1
128	0	160.005	0	-1	-1	-1	-1	2.000077e-001	40.0	755.953	-1	-1.000	-1
129	0	161.304	0	-1	-1	-1	-1	2.000077e-001	20.0	7619.525	-1	-1.000	-1
130	0	162.604	0	-1	-1	-1	-1	2.000077e-001	0.0	1904.881	-1	-1.000	-1
131	0	163.904	0	-1	-1	-1	-1	2.000077e-001	40.0	300.000	-1	-1.000	-1
132	0	165.204	0	-1	-1	-1	-1	2.000077e-001	10.0	15239.050	-1	-1.000	-1
133	0	166.504	0	-1	-1	-1	-1	2.000077e-001	10.0	600.000	-1	-1.000	-1
134	0	167.804	0	-1	-1	-1	-1	2.000077e-001	10.0	3809.763	-1	-1.000	-1
135	0	169.004	0	-1	-1	-1	-1	2.000077e-001	20.0	755.953	-1	-1.000	-1
136	0	170.309	0	-1	-1	-1	-1	2.000077e-001	30.0	377.976	-1	-1.000	-1
137	0	171.620	0	-1	-1	-1	-1	2.000077e-001	0.0	600.000	-1	-1.000	-1
138	0	172.904	0	-1	-1	-1	-1	2.000077e-001	40.0	9600.000	-1	-1.000	-1
139	0	174.104	0	-1	-1	-1	-1	2.000077e-001	30.0	3809.763	-1	-1.000	-1
140	0	175.305	0	-1	-1	-1	-1	2.000077e-001	40.0	238.110	-1	-1.000	-1
141	0	176.504	0	-1	-1	-1	-1	2.000077e-001	20.0	188.988	-1	-1.000	-1
142	0	177.704	0	-1	-1	-1	-1	2.000077e-001	10.0	6047.621	-1	-1.000	-1
143	0	178.904	0	-1	-1	-1	-1	2.000077e-001	10.0	4800.000	-1	-1.000	-1
144	0	180.103	0	-1	-1	-1	-1	2.000077e-001	0.0	12095.242	-1	-1.000	-1
145	0	181.304	0	-1	-1	-1	-1	2.000077e-001	0.0	7619.525	-1	-1.000	-1
146	0	182.504	0	-1	-1	-1	-1	2.000077e-001	30.0	1200.000	-1	-1.000	-1
147	0	183.704	0	-1	-1	-1	-1	2.000077e-001	10.0	952.441	-1	-1.000	-1
148	0	184.905	0	-1	-1	-1	-1	2.000077e-001	10.0	3023.811	-1	-1.000	-1
149	0	186.104	0	-1	-1	-1	-1	2.000077e-001	0.0	1200.000	-1	-1.000	-1
150	0	187.304	0	-1	-1	-1	-1	2.000077e-001	20.0	2400.000	-1	-1.000	-1
151	0	188.504	0	-1	-1	-1	-1	2.000077e-001	40.0	1200.000	-1	-1.000	-1
152	0	189.704	0	-1	-1	-1	-1	2.000077e-001	10.0	1511.905	-1	-1.000	-1
153	0	191.004	0	-1	-1	-1	-1	2.000077e-001	20.0	19200.000	-1	-1.000	-1
154	0	192.305	0	-1	-1	-1	-1	2.000077e-001	20.0	6047.621	-1	-1.000	-1
155	0	193.604	0	-1	-1	-1	-1	2.000077e-001	10.0	755.953	-1	-1.000	-1
156	0	194.905	0	-1	-1	-1	-1	2.000077e-001	30.0	300.000	-1	-1.000	-1
157	0	196.204	0	-1	-1	-1	-1	2.000077e-001	0.0	4800.000	-1	-1.000	-1
158	0	197.504	0	-1	-1	-1	-1	2.000077e-001	30.0	238.110	-1	-1.000	-1
159	0	198.704	0	-1	-1	-1	-1	2.000077e-001	10.0	19200.000	-1	-1.000	-1
160	0	200.015	0	-1	-1	-1	-1	2.000077e-001	40.0	377.976	-1	-1.000	-1
161	0	201.323	0	-1	-1	-1	-1	2.000077e-001	40.0	2400.000	-1	-1.000	-1
162	0	202.604	0	-1	-1	-1	-1	2.000077e-001	20.0	9600.000	-1	-1.000	-1
163	0	203.804	0	-1	-1	-1	-1	2.000077e-001	40.0	3809.763	-1	-1.000	-1
164	0	205.004	0	-1	-1	-1	-1	2.000077e-001	0.0	377.976	-1	-1.000	-1
165	0	206.205	0	-1	-1	-1	-1	2.000077e-001	30.0	188.988	-1	-1.000	-1
166	0	207.404	0	-1	-1	-1	-1	2.000077e-001	40.0	1511.905	-1	-1.000	-1
167	0	208.605	0	-1	-1	-1	-1	2.000077e-001	0.0	1511.905	-1	-1.000	-1
168	0	209.804	0	-1	-1	-1	-1	2.000077e-001	10.0	238.110	-1	-1.000	-1
169	0	211.005	0	-1	-1	-1	-1	2.000077e-001	0.0	15239.050	-1	-1.000	-1
170	0	212.205	0	-1	-1	-1	-1	2.000077e-001	0.0	9600.000	-1	-1.000	-1
171	0	213.405	0	-1	-1	-1	-1	2.000077e-001	0.0	952.441	-1	-1.000	-1
172	0	214.604	0	-1	-1	-1	-1	2.000077e-001	20.0	1511.905	-1	-1.000	-1
173	0	215.904	0	-1	-1	-1	-1	2.000077e-001	10.0	9600.000	-1	-1.000	-1
174	0	217.204	0	-1	-1	-1	-1	2.000077e-001	20.0	150.000	-1	-1.000	-1
175	0	218.504	0	-1	-1	-1	-1	2.000077e-001	30.0	476.220	-1	-1.000	-1
176	0	219.705	0	-1	-1	-1	-1	2.000077e-001	0.0	150.000	-1	-1.000	-1
177	0	221.005	0	-1	-1	-1	-1	2.000077e-001	30.0	4800.000	-1	-1.000	-1
178	0	222.305	0	-1	-1	-1	-1	2.000077e-001	20.0	600.000	-1	-1.000	-1
179	0	223.607	0	-1	-1	-1	-1	2.000077e-001	10.0	476.220	-1	-1.000	-1
180	0	224.911	0	-1	-1	-1	-1	2.000077e-001	0.0	476.220	-1	-1.000	-1
181	0	226.221	0	-1	-1	-1	-1	2.000077e-001	40.0	19200.000	-1	-1.000	-1
182	0	227.505	0	-1	-1	-1	-1	2.000077e-001	10.0	300.000	-1	-1.000	-1
183	0	228.705	0	-1	-1	-1	-1	2.000077e-001	30.0	1904.881	-1	-1.000	-1
184	0	229.904	0	-1	-1	-1	-1	2.000077e-001	40.0	188.988	-1	-1.000	-1
185	0	231.105	0	-1	-1	-1	-1	2.000077e-001	30.0	3023.811	-1	-1.000	-1
186	0	232.304	0	-1	-1	-1	-1	2.000077e-001	30.0	15239.050	-1	-1.000	-1
187	0	233.504	0	-1	-1	-1	-1	2.000077e-001	40.0	1904.881	-1	-1.000	-1
188	0	234.704	0	-1	-1	-1	-1	2.000077e-001	30.0	600.000	-1	-1.000	-1
189	0	235.904	0	-1	-1	-1	-1	2.000077e-001	30.0	150.000	-1	-1.000	-1
190	0	237.104	0	-1	-1	-1	-1	2.000077e-001	20.0	3809.763	-1	-1.000	-1
191	0	238.305	0	-1	-1	-1	-1	2.000077e-001	0.0	6047.621	-1	-1.000	-1
192	0	239.505	0	-1	-1	-1	-1	2.000077e-001	10.0	377.976	-1	-1.000	-1
193	0	240.704	0	-1	-1	-1	-1	2.000077e-001	0.0	3809.763	-1	-1.000	-1
194	0	241.905	0	-1	-1	-1	-1	2.000077e-001	10.0	1904.881	-1	-1.000	-1
195	0	243.105	0	-1	-1	-1	-1	2.000077e-001	20.0	377.976	-1	-1.000	-1
196	0	244.405	0	-1	-1	-1	-1	2.000077e-001	20.0	952.441	-1	-1.000	-1
197	0	245.706	0	-1	-1	-1	-1	2.000077e-001	10.0	7619.525	-1	-1.000	-1
198	0	247.006	0	-1	-1	-1	-1	2.000077e-001	20.0	300.000	-1	-1.000	-1
199	0	248.306	0	-1	-1	-1	-1	2.000077e-001	40.0	952.441	-1	-1.000	-1
200	0	249.605	0	-1	-1	-1	-1	2.000077e-001	30.0	1511.905	-1	-1.000	-1
201	0	250.905	0	-1	-1	-1	-1	2.000077e-001	10.0	150.000	-1	-1.000	-1
202	0	252.216	0	-1	-1	-1	-1	2.000077e-001	0.0	3023.811	-1	-1.000	-1
203	0	253.524	0	-1	-1	-1	-1	2.000077e-001	30.0	6047.621	-1	-1.000	-1
204	0	254.804	0	-1	-1	-1	-1	2.000077e-001	20.0	4800.000	-1	-1.000	-1
205	0	256.005	0	-1	-1	-1	-1	2.000077e-001	40.0	3023.811	-1	-1.000	-1
206	0	257.205	0	-1	-1	-1	-1	2.000077e-001	30.0	12095.242	-1	-1.000	-1
207	0	258.405	0	-1	-1	-1	-1	2.000077e-001	10.0	188.988	-1	-1.000	-1
208	0	259.605	0	-1	-1	-1	-1	2.000077e-001	0.0	2400.000	-1	-1.000	-1
209	0	260.805	0	-1	-1	-1	-1	2.000077e-001	10.0	2400.000	-1	-1.000	-1
210	0	262.005	0	-1	-1	-1	-1	2.000077e-001	40.0	150.000	-1	-1.000	-1
211	0	263.205	0	-1	-1	-1	-1	2.000077e-001	20.0	238.110	-1	-1.000	-1
212	0	264.405	0	-1	-1	-1	-1	2.000077e-001	0.0	188.988	-1	-1.000	-1
213	0	265.605	0	-1	-1	-1	-1	2.000077e-001	40.0	476.220	-1	-1.000	-1
214	0	266.805	0	-1	-1	-1	-1	2.000077e-001	40.0	15239.050	-1	-1.000	-1
215	0	268.104	0	-1	-1	-1	-1	2.000077e-001	20.0	1904.881	-1	-1.000	-1
216	0	269.305	0	-1	-1	-1	-1	2.000077e-001	0.0	300.000	-1	-1.000	-1
217	0	270.605	0	-1	-1	-1	-1	2.000077e-001	30.0	755.953	-1	-1.000	-1
218	0	271.905	0	-1	-1	-1	-1	2.000077e-001	40.0	600.000	-1	-1.000	-1
219	0	273.205	0	-1	-1	-1	-1	2.000077e-001	20.0	3023.811	-1	-1.000	-1
220	0	274.506	0	-1	-1	-1	-1	2.000077e-001	10.0	12095.242	-1	-1.000	-1
221	0	276.018	0	-1	-1	-1	-1	2.000077e-001	30.0	238.110	-1	-1.000	-1
222	0	277.326	0	-1	-1	-1	-1	2.000077e-001	0.0	2400.000	-1	-1.000	-1
223	0	278.606	0	-1	-1	-1	-1	2.000077e-001	40.0	952.441	-1	-1.000	-1
224	0	279.806	0	-1	-1	-1	-1	2.000077e-001	20.0	2400.000	-1	-1.000	-1
225	0	281.005	0	-1	-1	-1	-1	2.000077e-001	10.0	300.000	-1	-1.000	-1
226	0	282.206	0	-1	-1	-1	-1	2.000077e-001	10.0	238.110	-1	-1.000	-1
227	0	283.405	0	-1	-1	-1	-1	2.000077e-001	20.0	15239.050	-1	-1.000	-1
228	0	284.605	0	-1	-1	-1	-1	2.000077e-001	40.0	3809.763	-1	-1.000	-1
229	0	285.806	0	-1	-1	-1	-1	2.000077e-001	30.0	1200.000	-1	-1.000	-1
230	0	287.005	0	-1	-1	-1	-1	2.000077e-001	10.0	15239.050	-1	-1.000	-1
231	0	288.205	0	-1	-1	-1	-1	2.000077e-001	0.0	4800.000	-1	-1.000	-1
232	0	289.505	0	-1	-1	-1	-1	2.000077e-001	30.0	15239.050	-1	-1.000	-1
233	0	290.806	0	-1	-1	-1	-1	2.000077e-001	10.0	2400.000	-1	-1.000	-1
234	0	292.106	0	-1	-1	-1	-1	2.000077e-001	40.0	377.976	-1	-1.000	-1
235	0	293.406	0	-1	-1	-1	-1	2.000077e-001	30.0	3809.763	-1	-1.000	-1
236	0	294.706	0	-1	-1	-1	-1	2.000077e-001	30.0	4800.000	-1	-1.000	-1
237	0	296.006	0	-1	-1	-1	-1	2.000077e-001	20.0	238.110	-1	-1.000	-1
238	0	297.314	0	-1	-1	-1	-1	2.000077e-001	40.0	9600.000	-1	-1.000	-1
239	0	298.626	0	-1	-1	-1	-1	2.000077e-001	20.0	476.220	-1	-1.000	-1
240	0	299.906	0	-1	-1	-1	-1	2.000077e-001	40.0	476.220	-1	-1.000	-1
241	0	301.106	0	-1	-1	-1	-1	2.000077e-001	20.0	9600.000	-1	-1.000	-1
242	0	302.305	0	-1	-1	-1	-1	2.000077e-001	20.0	377.976	-1	-1.000	-1
243	0	303.506	0	-1	-1	-1	-1	2.000077e-001	40.0	600.000	-1	-1.000	-1
244	0	304.705	0	-1	-1	-1	-1	2.000077e-001	10.0	12095.242	-1	-1.000	-1
245	0	305.905	0	-1	-1	-1	-1	2.000077e-001	10.0	3809.763	-1	-1.000	-1
246	0	307.105	0	-1	-1	-1	-1	2.000077e-001	30.0	12095.242	-1	-1.000	-1
247	0	308.305	0	-1	-1	-1	-1	2.000077e-001	20.0	150.000	-1	-1.000	-1
248	0	309.505	0	-1	-1	-1	-1	2.000077e-001	40.0	1904.881	-1	-1.000	-1
249	0	310.706	0	-1	-1	-1	-1	2.000077e-001	0.0	1511.905	-1	-1.000	-1
250	0	311.905	0	-1	-1	-1	-1	2.000077e-001	0.0	188.988	-1	-1.000	-1
251	0	313.205	0	-1	-1	-1	-1	2.000077e-001	30.0	6047.621	-1	-1.000	-1
252	0	314.406	0	-1	-1	-1	-1	2.000077e-001	0.0	755.953	-1	-1.000	-1
253	0	315.706	0	-1	-1	-1	-1	2.000077e-001	20.0	4800.000	-1	-1.000	-1
254	0	317.007	0	-1	-1	-1	-1	2.000077e-001	40.0	12095.242	-1	-1.000	-1
255	0	318.307	0	-1	-1	-1	-1	2.000077e-001	10.0	952.441	-1	-1.000	-1
256	0	319.605	0	-1	-1	-1	-1	2.000077e-001	20.0	755.953	-1	-1.000	-1
257	0	320.905	0	-1	-1	-1	-1	2.000077e-001	30.0	7619.525	-1	-1.000	-1
258	0	322.210	0	-1	-1	-1	-1	2.000077e-001	40.0	7619.525	-1	-1.000	-1
259	0	323.524	0	-1	-1	-1	-1	2.000077e-001	40.0	150.000	-1	-1.000	-1
260	0	324.805	0	-1	-1	-1	-1	2.000077e-001	40.0	19200.000	-1	-1.000	-1
261	0	326.006	0	-1	-1	-1	-1	2.000077e-001	20.0	7619.525	-1	-1.000	-1
262	0	327.206	0	-1	-1	-1	-1	2.000077e-001	0.0	1904.881	-1	-1.000	-1
263	0	328.406	0	-1	-1	-1	-1	2.000077e-001	40.0	1511.905	-1	-1.000	-1
264	0	329.606	0	-1	-1	-1	-1	2.000077e-001	10.0	1904.881	-1	-1.000	-1
265	0	330.806	0	-1	-1	-1	-1	2.000077e-001	10.0	476.220	-1	-1.000	-1
266	0	332.006	0	-1	-1	-1	-1	2.000077e-001	10.0	377.976	-1	-1.000	-1
267	0	333.206	0	-1	-1	-1	-1	2.000077e-001	30.0	19200.000	-1	-1.000	-1
268	0	334.407	0	-1	-1	-1	-1	2.000077e-001	0.0	1200.000	-1	-1.000	-1
269	0	335.606	0	-1	-1	-1	-1	2.000077e-001	20.0	6047.621	-1	-1.000	-1
270	0	336.806	0	-1	-1	-1	-1	2.000077e-001	30.0	150.000	-1	-1.000	-1
271	0	338.005	0	-1	-1	-1	-1	2.000077e-001	40.0	755.953	-1	-1.000	-1
272	0	339.206	0	-1	-1	-1	-1	2.000077e-001	30.0	300.000	-1	-1.000	-1
273	0	340.505	0	-1	-1	-1	-1	2.000077e-001	0.0	6047.621	-1	-1.000	-1
274	0	341.706	0	-1	-1	-1	-1	2.000077e-001	30.0	9600.000	-1	-1.000	-1
275	0	343.006	0	-1	-1	-1	-1	2.000077e-001	20.0	3023.811	-1	-1.000	-1
276	0	344.306	0	-1	-1	-1	-1	2.000077e-001	20.0	3809.763	-1	-1.000	-1
277	0	345.606	0	-1	-1	-1	-1	2.000077e-001	30.0	377.976	-1	-1.000	-1
278	0	346.906	0	-1	-1	-1	-1	2.000077e-001	30.0	3023.811	-1	-1.000	-1
279	0	348.206	0	-1	-1	-1	-1	2.000077e-001	40.0	6047.621	-1	-1.000	-1
280	0	349.520	0	-1	-1	-1	-1	2.000077e-001	30.0	600.000	-1	-1.000	-1
281	0	350.821	0	-1	-1	-1	-1	2.000077e-001	20.0	300.000	-1	-1.000	-1
282	0	352.106	0	-1	-1	-1	-1	2.000077e-001	10.0	1511.905	-1	-1.000	-1
283	0	353.306	0	-1	-1	-1	-1	2.000077e-001	40.0	1200.000	-1	-1.000	-1
284	0	354.506	0	-1	-1	-1	-1	2.000077e-001	20.0	188.988	-1	-1.000	-1
285	0	355.705	0	-1	-1	-1	-1	2.000077e-001	20.0	1511.905	-1	-1.000	-1
286	0	356.906	0	-1	-1	-1	-1	2.000077e-001	40.0	2400.000	-1	-1.000	-1
287	0	358.106	0	-1	-1	-1	-1	2.000077e-001	30.0	188.988	-1	-1.000	-1
288	0	359.306	0	-1	-1	-1	-1	2.000077e-001	10.0	9600.000	-1	-1.000	-1
289	0	360.506	0	-1	-1	-1	-1	2.000077e-001	10.0	600.000	-1	-1.000	-1
290	0	361.706	0	-1	-1	-1	-1	2.000077e-001	0.0	19200.000	-1	-1.000	-1
291	0	362.906	0	-1	-1	-1	-1	2.000077e-001	40.0	238.110	-1	-1.000	-1
292	0	364.106	0	-1	-1	-1	-1	2.000077e-001	20.0	952.441	-1	-1.000	-1
293	0	365.307	0	-1	-1	-1	-1	2.000077e-001	20.0	600.000	-1	-1.000	-1
294	0	366.506	0	-1	-1	-1	-1	2.000077e-001	40.0	15239.050	-1	-1.000	-1
295	0	367.707	0	-1	-1	-1	-1	2.000077e-001	20.0	1904.881	-1	-1.000	-1
296	0	368.907	0	-1	-1	-1	-1	2.000077e-001	10.0	188.988	-1	-1.000	-1
297	0	370.207	0	-1	-1	-1	-1	2.000077e-001	30.0	2400.000	-1	-1.000	-1
298	0	371.507	0	-1	-1	-1	-1	2.000077e-001	0.0	300.000	-1	-1.000	-1
299	0	372.806	0	-1	-1	-1	-1	2.000077e-001	30.0	952.441	-1	-1.000	-1
300	0	374.106	0	-1	-1	-1	-1	2.000077e-001	20.0	12095.242	-1	-1.000	-1
301	0	375.407	0	-1	-1	-1	-1	2.000077e-001	10.0	7619.525	-1	-1.000	-1
302	0	376.706	0	-1	-1	-1	-1	2.000077e-001	0.0	238.110	-1	-1.000	-1
303	0	377.907	0	-1	-1	-1	-1	2.000077e-001	30.0	1904.881	-1	-1.000	-1
304	0	379.218	0	-1	-1	-1	-1	2.000077e-001	0.0	600.000	-1	-1.000	-1
305	0	380.524	0	-1	-1	-1	-1	2.000077e-001	30.0	755.953	-1	-1.000	-1
306	0	381.807	0	-1	-1	-1	-1	2.000077e-001	30.0	1511.905	-1	-1.000	-1
307	0	383.007	0	-1	-1	-1	-1	2.000077e-001	0.0	7619.525	-1	-1.000	-1
308	0	384.207	0	-1	-1	-1	-1	2.000077e-001	10.0	150.000	-1	-1.000	-1
309	0	385.406	0	-1	-1	-1	-1	2.000077e-001	20.0	19200.000	-1	-1.000	-1
310	0	386.607	0	-1	-1	-1	-1	2.000077e-001	0.0	3809.763	-1	-1.000	-1
311	0	387.807	0	-1	-1	-1	-1	2.000077e-001	20.0	1200.000	-1	-1.000	-1
312	0	389.007	0	-1	-1	-1	-1	2.000077e-001	0.0	476.220	-1	-1.000	-1
313	0	390.206	0	-1	-1	-1	-1	2.000077e-001	10.0	19200.000	-1	-1.000	-1
314	0	391.406	0	-1	-1	-1	-1	2.000077e-001	0.0	150.000	-1	-1.000	-1
315	0	392.606	0	-1	-1	-1	-1	2.000077e-001	10.0	3023.811	-1	-1.000	-1
316	0	393.806	0	-1	-1	-1	-1	2.000077e-001	40.0	300.000	-1	-1.000	-1
317	0	395.006	0	-1	-1	-1	-1	2.000077e-001	0.0	12095.242	-1	-1.000	-1
318	0	396.207	0	-1	-1	-1	-1	2.000077e-001	40.0	4800.000	-1	-1.000	-1
319	0	397.507	0	-1	-1	-1	-1	2.000077e-001	10.0	4800.000	-1	-1.000	-1
320	0	398.807	0	-1	-1	-1	-1	2.000077e-001	40.0	3023.811	-1	-1.000	-1
321	0	400.107	0	-1	-1	-1	-1	2.000077e-001	10.0	6047.621	-1	-1.000	-1
322	0	401.407	0	-1	-1	-1	-1	2.000077e-001	10.0	755.953	-1	-1.000	-1
323	0	402.707	0	-1	-1	-1	-1	2.000077e-001	0.0	377.976	-1	-1.000	-1
324	0	403.907	0	-1	-1	-1	-1	2.000077e-001	0.0	3023.811	-1	-1.000	-1
325	0	405.207	0	-1	-1	-1	-1	2.000077e-001	0.0	15239.050	-1	-1.000	-1
326	0	406.515	0	-1	-1	-1	-1	2.000077e-001	30.0	476.220	-1	-1.000	-1
327	0	407.830	0	-1	-1	-1	-1	2.000077e-001	0.0	952.441	-1	-1.000	-1
328	0	409.106	0	-1	-1	-1	-1	2.000077e-001	0.0	9600.000	-1	-1.000	-1
329	0	410.306	0	-1	-1	-1	-1	2.000077e-001	10.0	1200.000	-1	-1.000	-1
330	0	411.506	0	-1	-1	-1	-1	2.000077e-001	40.0	188.988	-1	-1.000	-1
331	0	412.907	0	-1	-1	-1	-1	2.000077e-001	30.0	238.110	-1	-1.000	-1
332	0	414.207	0	-1	-1	-1	-1	2.000077e-001	20.0	238.110	-1	-1.000	-1
333	0	415.507	0	-1	-1	-1	-1	2.000077e-001	10.0	12095.242	-1	-1.000	-1
334	0	416.807	0	-1	-1	-1	-1	2.000077e-001	10.0	3809.763	-1	-1.000	-1
335	0	418.108	0	-1	-1	-1	-1	2.000077e-001	0.0	377.976	-1	-1.000	-1
336	0	419.408	0	-1	-1	-1	-1	2.000077e-001	30.0	3809.763	-1	-1.000	-1
337	0	420.711	0	-1	-1	-1	-1	2.000077e-001	20.0	188.988	-1	-1.000	-1
338	0	422.020	0	-1	-1	-1	-1	2.000077e-001	20.0	9600.000	-1	-1.000	-1
339	0	423.330	0	-1	-1	-1	-1	2.000077e-001	10.0	2400.000	-1	-1.000	-1
340	0	424.606	0	-1	-1	-1	-1	2.000077e-001	0.0	1904.881	-1	-1.000	-1
341	0	425.807	0	-1	-1	-1	-1	2.000077e-001	20.0	3023.811	-1	-1.000	-1
342	0	427.007	0	-1	-1	-1	-1	2.000077e-001	20.0	755.953	-1	-1.000	-1
343	0	428.207	0	-1	-1	-1	-1	2.000077e-001	20.0	952.441	-1	-1.000	-1
344	0	429.406	0	-1	-1	-1	-1	2.000077e-001	0.0	300.000	-1	-1.000	-1
345	0	430.607	0	-1	-1	-1	-1	2.000077e-001	20.0	2400.000	-1	-1.000	-1
346	0	431.807	0	-1	-1	-1	-1	2.000077e-001	0.0	952.441	-1	-1.000	-1
347	0	433.107	0	-1	-1	-1	-1	2.000077e-001	10.0	1200.000	-1	-1.000	-1
348	0	434.408	0	-1	-1	-1	-1	2.000077e-001	0.0	188.988	-1	-1.000	-1
349	0	435.708	0	-1	-1	-1	-1	2.000077e-001	30.0	188.988	-1	-1.000	-1
350	0	437.007	0	-1	-1	-1	-1	2.000077e-001	20.0	15239.050	-1	-1.000	-1
351	0	438.308	0	-1	-1	-1	-1	2.000077e-001	10.0	1511.905	-1	-1.000	-1
352	0	439.609	0	-1	-1	-1	-1	2.000077e-001	40.0	3809.763	-1	-1.000	-1
353	0	440.914	0	-1	-1	-1	-1	2.000077e-001	0.0	6047.621	-1	-1.000	-1
354	0	442.221	0	-1	-1	-1	-1	2.000077e-001	0.0	9600.000	-1	-1.000	-1
355	0	443.506	0	-1	-1	-1	-1	2.000077e-001	0.0	12095.242	-1	-1.000	-1
356	0	444.707	0	-1	-1	-1	-1	2.000077e-001	40.0	1511.905	-1	-1.000	-1
357	0	445.907	0	-1	-1	-1	-1	2.000077e-001	10.0	600.000	-1	-1.000	-1
358	0	447.107	0	-1	-1	-1	-1	2.000077e-001	10.0	4800.000	-1	-1.000	-1
359	0	448.307	0	-1	-1	-1	-1	2.000077e-001	10.0	150.000	-1	-1.000	-1
360	0	449.507	0	-1	-1	-1	-1	2.000077e-001	10.0	1904.881	-1	-1.000	-1
361	0	450.707	0	-1	-1	-1	-1	2.000077e-001	0.0	1200.000	-1	-1.000	-1
362	0	451.907	0	-1	-1	-1	-1	2.000077e-001	20.0	150.000	-1	-1.000	-1
363	0	453.107	0	-1	-1	-1	-1	2.000077e-001	40.0	1904.881	-1	-1.000	-1
364	0	454.308	0	-1	-1	-1	-1	2.000077e-001	40.0	1200.000	-1	-1.000	-1
365	0	455.508	0	-1	-1	-1	-1	2.000077e-001	40.0	4800.000	-1	-1.000	-1
366	0	456.708	0	-1	-1	-1	-1	2.000077e-001	40.0	300.000	-1	-1.000	-1
367	0	458.008	0	-1	-1	-1	-1	2.000077e-001	30.0	19200.000	-1	-1.000	-1
368	0	459.308	0	-1	-1	-1	-1	2.000077e-001	0.0	238.110	-1	-1.000	-1
369	0	460.608	0	-1	-1	-1	-1	2.000077e-001	10.0	9600.000	-1	-1.000	-1
370	0	461.907	0	-1	-1	-1	-1	2.000077e-001	40.0	377.976	-1	-1.000	-1
371	0	463.208	0	-1	-1	-1	-1	2.000077e-001	30.0	7619.525	-1	-1.000	-1
372	0	464.507	0	-1	-1	-1	-1	2.000077e-001	0.0	3023.811	-1	-1.000	-1
373	0	465.811	0	-1	-1	-1	-1	2.000077e-001	40.0	9600.000	-1	-1.000	-1
374	0	467.122	0	-1	-1	-1	-1	2.000077e-001	30.0	15239.050	-1	-1.000	-1
375	0	468.425	0	-1	-1	-1	-1	2.000077e-001	30.0	1200.000	-1	-1.000	-1
376	0	469.707	0	-1	-1	-1	-1	2.000077e-001	10.0	952.441	-1	-1.000	-1
377	0	470.908	0	-1	-1	-1	-1	2.000077e-001	10.0	238.110	-1	-1.000	-1
378	0	472.108	0	-1	-1	-1	-1	2.000077e-001	10.0	6047.621	-1	-1.000	-1
379	0	473.308	0	-1	-1	-1	-1	2.000077e-001	20.0	300.000	-1	-1.000	-1
380	0	474.508	0	-1	-1	-1	-1	2.000077e-001	40.0	2400.000	-1	-1.000	-1
381	0	475.808	0	-1	-1	-1	-1	2.000077e-001	0.0	4800.000	-1	-1.000	-1
382	0	477.108	0	-1	-1	-1	-1	2.000077e-001	0.0	7619.525	-1	-1.000	-1
383	0	478.408	0	-1	-1	-1	-1	2.000077e-001	30.0	9600.000	-1	-1.000	-1
384	0	479.708	0	-1	-1	-1	-1	2.000077e-001	0.0	2400.000	-1	-1.000	-1
385	0	481.008	0	-1	-1	-1	-1	2.000077e-001	30.0	755.953	-1	-1.000	-1
386	0	482.308	0	-1	-1	-1	-1	2.000077e-001	0.0	1511.905	-1	-1.000	-1
387	0	483.612	0	-1	-1	-1	-1	2.000077e-001	20.0	4800.000	-1	-1.000	-1
388	0	484.919	0	-1	-1	-1	-1	2.000077e-001	30.0	300.000	-1	-1.000	-1
389	0	486.208	0	-1	-1	-1	-1	2.000077e-001	30.0	600.000	-1	-1.000	-1
390	0	487.409	0	-1	-1	-1	-1	2.000077e-001	40.0	6047.621	-1	-1.000	-1
391	0	488.608	0	-1	-1	-1	-1	2.000077e-001	20.0	19200.000	-1	-1.000	-1
392	0	489.808	0	-1	-1	-1	-1	2.000077e-001	40.0	7619.525	-1	-1.000	-1
393	0	491.008	0	-1	-1	-1	-1	2.000077e-001	10.0	19200.000	-1	-1.000	-1
394	0	492.208	0	-1	-1	-1	-1	2.000077e-001	30.0	1511.905	-1	-1.000	-1
395	0	493.408	0	-1	-1	-1	-1	2.000077e-001	20.0	377.976	-1	-1.000	-1
396	0	494.607	0	-1	-1	-1	-1	2.000077e-001	40.0	476.220	-1	-1.000	-1
397	0	495.807	0	-1	-1	-1	-1	2.000077e-001	10.0	3023.811	-1	-1.000	-1
398	0	497.008	0	-1	-1	-1	-1	2.000077e-001	30.0	12095.242	-1	-1.000	-1
399	0	498.207	0	-1	-1	-1	-1	2.000077e-001	20.0	7619.525	-1	-1.000	-1
400	0	499.407	0	-1	-1	-1	-1	2.000077e-001	10.0	188.988	-1	-1.000	-1
401	0	500.607	0	-1	-1	-1	-1	2.000077e-001	30.0	952.441	-1	-1.000	-1
402	0	501.808	0	-1	-1	-1	-1	2.000077e-001	20.0	600.000	-1	-1.000	-1
403	0	503.008	0	-1	-1	-1	-1	2.000077e-001	30.0	6047.621	-1	-1.000	-1
404	0	504.209	0	-1	-1	-1	-1	2.000077e-001	20.0	1904.881	-1	-1.000	-1
405	0	505.408	0	-1	-1	-1	-1	2.000077e-001	10.0	7619.525	-1	-1.000	-1
406	0	506.608	0	-1	-1	-1	-1	2.000077e-001	40.0	150.000	-1	-1.000	-1
407	0	507.908	0	-1	-1	-1	-1	2.000077e-001	30.0	150.000	-1	-1.000	-1
408	0	509.109	0	-1	-1	-1	-1	2.000077e-001	30.0	2400.000	-1	-1.000	-1
409	0	510.409	0	-1	-1	-1	-1	2.000077e-001	40.0	3023.811	-1	-1.000	-1
410	0	511.709	0	-1	-1	-1	-1	2.000077e-001	30.0	377.976	-1	-1.000	-1
411	0	513.008	0	-1	-1	-1	-1	2.000077e-001	40.0	19200.000	-1	-1.000	-1
412	0	514.308	0	-1	-1	-1	-1	2.000077e-001	40.0	15239.050	-1	-1.000	-1
413	0	515.608	0	-1	-1	-1	-1	2.000077e-001	0.0	476.220	-1	-1.000	-1
414	0	516.919	0	-1	-1	-1	-1	2.000077e-001	10.0	15239.050	-1	-1.000	-1
415	0	518.227	0	-1	-1	-1	-1	2.000077e-001	0.0	3809.763	-1	-1.000	-1
416	0	519.508	0	-1	-1	-1	-1	2.000077e-001	10.0	300.000	-1	-1.000	-1
417	0	520.708	0	-1	-1	-1	-1	2.000077e-001	10.0	755.953	-1	-1.000	-1
418	0	521.908	0	-1	-1	-1	-1	2.000077e-001	40.0	238.110	-1	-1.000	-1
419	0	523.108	0	-1	-1	-1	-1	2.000077e-001	30.0	3023.811	-1	-1.000	-1
420	0	524.308	0	-1	-1	-1	-1	2.000077e-001	20.0	1200.000	-1	-1.000	-1
421	0	525.508	0	-1	-1	-1	-1	2.000077e-001	30.0	476.220	-1	-1.000	-1
422	0	526.709	0	-1	-1	-1	-1	2.000077e-001	0.0	150.000	-1	-1.000	-1
423	0	527.909	0	-1	-1	-1	-1	2.000077e-001	10.0	476.220	-1	-1.000	-1
424	0	529.108	0	-1	-1	-1	-1	2.000077e-001	40.0	600.000	-1	-1.000	-1
425	0	530.307	0	-1	-1	-1	-1	2.000077e-001	0.0	19200.000	-1	-1.000	-1
426	0	531.508	0	-1	-1	-1	-1	2.000077e-001	40.0	12095.242	-1	-1.000	-1
427	0	532.708	0	-1	-1	-1	-1	2.000077e-001	0.0	15239.050	-1	-1.000	-1
428	0	534.008	0	-1	-1	-1	-1	2.000077e-001	40.0	952.441	-1	-1.000	-1
429	0	535.309	0	-1	-1	-1	-1	2.000077e-001	20.0	1511.905	-1	-1.000	-1
430	0	536.609	0	-1	-1	-1	-1	2.000077e-001	20.0	476.220	-1	-1.000	-1
431	0	537.908	0	-1	-1	-1	-1	2.000077e-001	20.0	3809.763	-1	-1.000	-1
432	0	539.108	0	-1	-1	-1	-1	2.000077e-001	0.0	600.000	-1	-1.000	-1
433	0	540.408	0	-1	-1	-1	-1	2.000077e-001	30.0	1904.881	-1	-1.000	-1
434	0	541.711	0	-1	-1	-1	-1	2.000077e-001	40.0	755.953	-1	-1.000	-1
435	0	543.019	0	-1	-1	-1	-1	2.000077e-001	0.0	755.953	-1	-1.000	-1
436	0	544.325	0	-1	-1	-1	-1	2.000077e-001	20.0	12095.242	-1	-1.000	-1
437	0	545.609	0	-1	-1	-1	-1	2.000077e-001	20.0	6047.621	-1	-1.000	-1
438	0	546.808	0	-1	-1	-1	-1	2.000077e-001	10.0	377.976	-1	-1.000	-1
439	0	548.009	0	-1	-1	-1	-1	2.000077e-001	40.0	188.988	-1	-1.000	-1
440	0	549.208	0	-1	-1	-1	-1	2.000077e-001	30.0	4800.000	-1	-1.000	-1
441	0	550.608	0	-1	-1	-1	-1	2.000077e-001	10.0	600.000	-1	-1.000	-1
442	0	551.908	0	-1	-1	-1	-1	2.000077e-001	10.0	188.988	-1	-1.000	-1
443	0	553.209	0	-1	-1	-1	-1	2.000077e-001	40.0	377.976	-1	-1.000	-1
444	0	554.508	0	-1	-1	-1	-1	2.000077e-001	0.0	952.441	-1	-1.000	-1
445	0	555.808	0	-1	-1	-1	-1	2.000077e-001	10.0	15239.050	-1	-1.000	-1
446	0	557.109	0	-1	-1	-1	-1	2.000077e-001	20.0	2400.000	-1	-1.000	-1
447	0	558.414	0	-1	-1	-1	-1	2.000077e-001	30.0	9600.000	-1	-1.000	-1
448	0	559.723	0	-1	-1	-1	-1	2.000077e-001	40.0	6047.621	-1	-1.000	-1
449	0	561.008	0	-1	-1	-1	-1	2.000077e-001	10.0	755.953	-1	-1.000	-1
450	0	562.209	0	-1	-1	-1	-1	2.000077e-001	20.0	377.976	-1	-1.000	-1
451	0	563.409	0	-1	-1	-1	-1	2.000077e-001	0.0	300.000	-1	-1.000	-1
452	0	564.608	0	-1	-1	-1	-1	2.000077e-001	30.0	377.976	-1	-1.000	-1
453	0	565.809	0	-1	-1	-1	-1	2.000077e-001	20.0	3023.811	-1	-1.000	-1
454	0	567.008	0	-1	-1	-1	-1	2.000077e-001	20.0	3809.763	-1	-1.000	-1
455	0	568.208	0	-1	-1	-1	-1	2.000077e-001	30.0	150.000	-1	-1.000	-1
456	0	569.409	0	-1	-1	-1	-1	2.000077e-001	30.0	3809.763	-1	-1.000	-1
457	0	570.608	0	-1	-1	-1	-1	2.000077e-001	0.0	1511.905	-1	-1.000	-1
458	0	571.808	0	-1	-1	-1	-1	2.000077e-001	10.0	19200.000	-1	-1.000	-1
459	0	573.009	0	-1	-1	-1	-1	2.000077e-001	10.0	476.220	-1	-1.000	-1
460	0	574.209	0	-1	-1	-1	-1	2.000077e-001	0.0	150.000	-1	-1.000	-1
461	0	575.409	0	-1	-1	-1	-1	2.000077e-001	20.0	600.000	-1	-1.000	-1
462	0	576.608	0	-1	-1	-1	-1	2.000077e-001	40.0	7619.525	-1	-1.000	-1
463	0	577.809	0	-1	-1	-1	-1	2.000077e-001	0.0	6047.621	-1	-1.000	-1
464	0	579.109	0	-1	-1	-1	-1	2.000077e-001	30.0	1904.881	-1	-1.000	-1
465	0	580.410	0	-1	-1	-1	-1	2.000077e-001	20.0	1511.905	-1	-1.000	-1
466	0	581.710	0	-1	-1	-1	-1	2.000077e-001	40.0	1904.881	-1	-1.000	-1
467	0	583.009	0	-1	-1	-1	-1	2.000077e-001	10.0	1511.905	-1	-1.000	-1
468	0	584.309	0	-1	-1	-1	-1	2.000077e-001	30.0	1511.905	-1	-1.000	-1
469	0	585.609	0	-1	-1	-1	-1	2.000077e-001	10.0	2400.000	-1	-1.000	-1
470	0	586.916	0	-1	-1	-1	-1	2.000077e-001	40.0	238.110	-1	-1.000	-1
471	0	588.232	0	-1	-1	-1	-1	2.000077e-001	40.0	476.220	-1	-1.000	-1
472	0	589.509	0	-1	-1	-1	-1	2.000077e-001	40.0	300.000	-1	-1.000	-1
473	0	590.709	0	-1	-1	-1	-1	2.000077e-001	0.0	1200.000	-1	-1.000	-1
474	0	591.909	0	-1	-1	-1	-1	2.000077e-001	30.0	476.220	-1	-1.000	-1
475	0	593.109	0	-1	-1	-1	-1	2.000077e-001	40.0	952.441	-1	-1.000	-1
476	0	594.309	0	-1	-1	-1	-1	2.000077e-001	30.0	3023.811	-1	-1.000	-1
477	0	595.509	0	-1	-1	-1	-1	2.000077e-001	10.0	150.000	-1	-1.000	-1
478	0	596.709	0	-1	-1	-1	-1	2.000077e-001	10.0	6047.621	-1	-1.000	-1
479	0	597.909	0	-1	-1	-1	-1	2.000077e-001	0.0	1904.881	-1	-1.000	-1
480	0	599.110	0	-1	-1	-1	-1	2.000077e-001	0.0	12095.242	-1	-1.000	-1
481	0	600.309	0	-1	-1	-1	-1	2.000077e-001	10.0	1904.881	-1	-1.000	-1
482	0	601.508	0	-1	-1	-1	-1	2.000077e-001	20.0	755.953	-1	-1.000	-1
483	0	602.709	0	-1	-1	-1	-1	2.000077e-001	10.0	4800.000	-1	-1.000	-1
484	0	603.909	0	-1	-1	-1	-1	2.000077e-001	0.0	4800.000	-1	-1.000	-1
485	0	605.109	0	-1	-1	-1	-1	2.000077e-001	30.0	188.988	-1	-1.000	-1
486	0	606.409	0	-1	-1	-1	-1	2.000077e-001	40.0	188.988	-1	-1.000	-1
487	0	607.710	0	-1	-1	-1	-1	2.000077e-001	20.0	6047.621	-1	-1.000	-1
488	0	609.009	0	-1	-1	-1	-1	2.000077e-001	40.0	600.000	-1	-1.000	-1
489	0	610.209	0	-1	-1	-1	-1	2.000077e-001	10.0	300.000	-1	-1.000	-1
490	0	611.510	0	-1	-1	-1	-1	2.000077e-001	20.0	300.000	-1	-1.000	-1
491	0	612.810	0	-1	-1	-1	-1	2.000077e-001	30.0	600.000	-1	-1.000	-1
492	0	614.110	0	-1	-1	-1	-1	2.000077e-001	20.0	1200.000	-1	-1.000	-1
493	0	615.419	0	-1	-1	-1	-1	2.000077e-001	0.0	3809.763	-1	-1.000	-1
494	0	616.727	0	-1	-1	-1	-1	2.000077e-001	0.0	2400.000	-1	-1.000	-1
495	0	618.009	0	-1	-1	-1	-1	2.000077e-001	20.0	19200.000	-1	-1.000	-1
496	0	619.209	0	-1	-1	-1	-1	2.000077e-001	0.0	755.953	-1	-1.000	-1
497	0	620.409	0	-1	-1	-1	-1	2.000077e-001	40.0	1200.000	-1	-1.000	-1
498	0	621.609	0	-1	-1	-1	-1	2.000077e-001	40.0	150.000	-1	-1.000	-1
499	0	622.809	0	-1	-1	-1	-1	2.000077e-001	10.0	12095.242	-1	-1.000	-1
500	0	624.009	0	-1	-1	-1	-1	2.000077e-001	30.0	19200.000	-1	-1.000	-1
501	0	625.209	0	-1	-1	-1	-1	2.000077e-001	0.0	188.988	-1	-1.000	-1
502	0	626.409	0	-1	-1	-1	-1	2.000077e-001	0.0	377.976	-1	-1.000	-1
503	0	627.610	0	-1	-1	-1	-1	2.000077e-001	10.0	952.441	-1	-1.000	-1
504	0	628.810	0	-1	-1	-1	-1	2.000077e-001	40.0	755.953	-1	-1.000	-1
505	0	630.011	0	-1	-1	-1	-1	2.000077e-001	10.0	238.110	-1	-1.000	-1
506	0	631.310	0	-1	-1	-1	-1	2.000077e-001	0.0	238.110	-1	-1.000	-1
507	0	632.610	0	-1	-1	-1	-1	2.000077e-001	30.0	952.441	-1	-1.000	-1
508	0	633.910	0	-1	-1	-1	-1	2.000077e-001	40.0	4800.000	-1	-1.000	-1
509	0	635.209	0	-1	-1	-1	-1	2.000077e-001	10.0	3023.811	-1	-1.000	-1
510	0	636.409	0	-1	-1	-1	-1	2.000077e-001	0.0	3023.811	-1	-1.000	-1
511	0	637.710	0	-1	-1	-1	-1	2.000077e-001	30.0	2400.000	-1	-1.000	-1
512	0	639.010	0	-1	-1	-1	-1	2.000077e-001	20.0	1904.881	-1	-1.000	-1
513	0	640.315	0	-1	-1	-1	-1	2.000077e-001	30.0	4800.000	-1	-1.000	-1
514	0	641.630	0	-1	-1	-1	-1	2.000077e-001	20.0	188.988	-1	-1.000	-1
515	0	642.910	0	-1	-1	-1	-1	2.000077e-001	30.0	6047.621	-1	-1.000	-1
516	0	644.110	0	-1	-1	-1	-1	2.000077e-001	20.0	4800.000	-1	-1.000	-1
517	0	645.309	0	-1	-1	-1	-1	2.000077e-001	40.0	9600.000	-1	-1.000	-1
518	0	646.510	0	-1	-1	-1	-1	2.000077e-001	40.0	1511.905	-1	-1.000	-1
519	0	647.710	0	-1	-1	-1	-1	2.000077e-001	10.0	377.976	-1	-1.000	-1
520	0	648.910	0	-1	-1	-1	-1	2.000077e-001	40.0	3809.763	-1	-1.000	-1
521	0	650.110	0	-1	-1	-1	-1	2.000077e-001	10.0	9600.000	-1	-1.000	-1
522	0	651.310	0	-1	-1	-1	-1	2.000077e-001	30.0	12095.242	-1	-1.000	-1
523	0	652.510	0	-1	-1	-1	-1	2.000077e-001	20.0	952.441	-1	-1.000	-1
524	0	653.710	0	-1	-1	-1	-1	2.000077e-001	20.0	15239.050	-1	-1.000	-1
525	0	654.910	0	-1	-1	-1	-1	2.000077e-001	30.0	1200.000	-1	-1.000	-1
526	0	656.109	0	-1	-1	-1	-1	2.000077e-001	20.0	9600.000	-1	-1.000	-1
527	0	657.310	0	-1	-1	-1	-1	2.000077e-001	10.0	7619.525	-1	-1.000	-1
528	0	658.510	0	-1	-1	-1	-1	2.000077e-001	40.0	2400.000	-1	-1.000	-1
529	0	659.710	0	-1	-1	-1	-1	2.000077e-001	20.0	12095.242	-1	-1.000	-1
530	0	661.010	0	-1	-1	-1	-1	2.000077e-001	40.0	19200.000	-1	-1.000	-1
531	0	662.310	0	-1	-1	-1	-1	2.000077e-001	10.0	1200.000	-1	-1.000	-1
532	0	663.510	0	-1	-1	-1	-1	2.000077e-001	40.0	15239.050	-1	-1.000	-1
533	0	664.810	0	-1	-1	-1	-1	2.000077e-001	40.0	3023.811	-1	-1.000	-1
534	0	666.110	0	-1	-1	-1	-1	2.000077e-001	40.0	12095.242	-1	-1.000	-1
535	0	667.410	0	-1	-1	-1	-1	2.000077e-001	0.0	600.000	-1	-1.000	-1
536	0	668.715	0	-1	-1	-1	-1	2.000077e-001	0.0	15239.050	-1	-1.000	-1
537	0	670.020	0	-1	-1	-1	-1	2.000077e-001	10.0	3809.763	-1	-1.000	-1
538	0	671.327	0	-1	-1	-1	-1	2.000077e-001	20.0	150.000	-1	-1.000	-1
539	0	672.609	0	-1	-1	-1	-1	2.000077e-001	30.0	300.000	-1	-1.000	-1
540	0	673.810	0	-1	-1	-1	-1	2.000077e-001	30.0	755.953	-1	-1.000	-1
541	0	675.009	0	-1	-1	-1	-1	2.000077e-001	30.0	15239.050	-1	-1.000	-1
542	0	676.210	0	-1	-1	-1	-1	2.000077e-001	20.0	476.220	-1	-1.000	-1
543	0	677.410	0	-1	-1	-1	-1	2.000077e-001	30.0	238.110	-1	-1.000	-1
544	0	678.610	0	-1	-1	-1	-1	2.000077e-001	0.0	7619.525	-1	-1.000	-1
545	0	679.810	0	-1	-1	-1	-1	2.000077e-001	20.0	238.110	-1	-1.000	-1
546	0	681.010	0	-1	-1	-1	-1	2.000077e-001	0.0	476.220	-1	-1.000	-1
547	0	682.210	0	-1	-1	-1	-1	2.000077e-001	0.0	9600.000	-1	-1.000	-1
548	0	683.410	0	-1	-1	-1	-1	2.000077e-001	0.0	19200.000	-1	-1.000	-1
549	0	684.610	0	-1	-1	-1	-1	2.000077e-001	20.0	7619.525	-1	-1.000	-1
550	0	685.811	0	-1	-1	-1	-1	2.000077e-001	30.0	7619.525	-1	-1.000	-1
551	0	687.310	0	-1	-1	-1	-1	2.000077e-001	20.0	3809.763	-1	-1.000	-1
552	0	688.610	0	-1	-1	-1	-1	2.000077e-001	30.0	952.441	-1	-1.000	-1
553	0	689.910	0	-1	-1	-1	-1	2.000077e-001	0.0	600.000	-1	-1.000	-1
554	0	691.210	0	-1	-1	-1	-1	2.000077e-001	10.0	1511.905	-1	-1.000	-1
555	0	692.514	0	-1	-1	-1	-1	2.000077e-001	30.0	2400.000	-1	-1.000	-1
556	0	693.825	0	-1	-1	-1	-1	2.000077e-001	0.0	7619.525	-1	-1.000	-1
557	0	695.120	0	-1	-1	-1	-1	2.000077e-001	10.0	476.220	-1	-1.000	-1
558	0	696.410	0	-1	-1	-1	-1	2.000077e-001	30.0	9600.000	-1	-1.000	-1
559	0	697.611	0	-1	-1	-1	-1	2.000077e-001	20.0	12095.242	-1	-1.000	-1
560	0	698.810	0	-1	-1	-1	-1	2.000077e-001	10.0	1200.000	-1	-1.000	-1
561	0	700.011	0	-1	-1	-1	-1	2.000077e-001	10.0	755.953	-1	-1.000	-1
562	0	701.211	0	-1	-1	-1	-1	2.000077e-001	40.0	7619.525	-1	-1.000	-1
563	0	702.410	0	-1	-1	-1	-1	2.000077e-001	40.0	12095.242	-1	-1.000	-1
564	0	703.611	0	-1	-1	-1	-1	2.000077e-001	40.0	377.976	-1	-1.000	-1
565	0	704.910	0	-1	-1	-1	-1	2.000077e-001	0.0	150.000	-1	-1.000	-1
566	0	706.210	0	-1	-1	-1	-1	2.000077e-001	40.0	150.000	-1	-1.000	-1
567	0	707.511	0	-1	-1	-1	-1	2.000077e-001	30.0	377.976	-1	-1.000	-1
568	0	708.811	0	-1	-1	-1	-1	2.000077e-001	30.0	3023.811	-1	-1.000	-1
569	0	710.111	0	-1	-1	-1	-1	2.000077e-001	20.0	4800.000	-1	-1.000	-1
570	0	711.410	0	-1	-1	-1	-1	2.000077e-001	30.0	755.953	-1	-1.000	-1
571	0	712.610	0	-1	-1	-1	-1	2.000077e-001	20.0	952.441	-1	-1.000	-1
572	0	713.919	0	-1	-1	-1	-1	2.000077e-001	20.0	476.220	-1	-1.000	-1
573	0	715.226	0	-1	-1	-1	-1	2.000077e-001	20.0	755.953	-1	-1.000	-1
574	0	716.510	0	-1	-1	-1	-1	2.000077e-001	30.0	7619.525	-1	-1.000	-1
575	0	717.710	0	-1	-1	-1	-1	2.000077e-001	20.0	15239.050	-1	-1.000	-1
576	0	718.911	0	-1	-1	-1	-1	2.000077e-001	30.0	15239.050	-1	-1.000	-1
577	0	720.111	0	-1	-1	-1	-1	2.000077e-001	40.0	1511.905	-1	-1.000	-1
578	0	721.311	0	-1	-1	-1	-1	2.000077e-001	10.0	9600.000	-1	-1.000	-1
579	0	722.511	0	-1	-1	-1	-1	2.000077e-001	20.0	6047.621	-1	-1.000	-1
580	0	723.710	0	-1	-1	-1	-1	2.000077e-001	40.0	300.000	-1	-1.000	-1
581	0	724.910	0	-1	-1	-1	-1	2.000077e-001	30.0	1904.881	-1	-1.000	-1
582	0	726.110	0	-1	-1	-1	-1	2.000077e-001	10.0	6047.621	-1	-1.000	-1
583	0	727.310	0	-1	-1	-1	-1	2.000077e-001	40.0	9600.000	-1	-1.000	-1
584	0	728.511	0	-1	-1	-1	-1	2.000077e-001	40.0	600.000	-1	-1.000	-1
585	0	729.711	0	-1	-1	-1	-1	2.000077e-001	10.0	4800.000	-1	-1.000	-1
586	0	730.911	0	-1	-1	-1	-1	2.000077e-001	20.0	1904.881	-1	-1.000	-1
587	0	732.110	0	-1	-1	-1	-1	2.000077e-001	30.0	1200.000	-1	-1.000	-1
588	0	733.311	0	-1	-1	-1	-1	2.000077e-001	10.0	2400.000	-1	-1.000	-1
589	0	734.611	0	-1	-1	-1	-1	2.000077e-001	40.0	3809.763	-1	-1.000	-1
590	0	735.811	0	-1	-1	-1	-1	2.000077e-001	20.0	1511.905	-1	-1.000	-1
591	0	737.112	0	-1	-1	-1	-1	2.000077e-001	0.0	300.000	-1	-1.000	-1
592	0	738.411	0	-1	-1	-1	-1	2.000077e-001	30.0	188.988	-1	-1.000	-1
593	0	739.711	0	-1	-1	-1	-1	2.000077e-001	0.0	1511.905	-1	-1.000	-1
594	0	741.011	0	-1	-1	-1	-1	2.000077e-001	0.0	476.220	-1	-1.000	-1
595	0	742.311	0	-1	-1	-1	-1	2.000077e-001	40.0	1904.881	-1	-1.000	-1
596	0	743.621	0	-1	-1	-1	-1	2.000077e-001	0.0	3023.811	-1	-1.000	-1
597	0	744.933	0	-1	-1	-1	-1	2.000077e-001	10.0	377.976	-1	-1.000	-1
598	0	746.210	0	-1	-1	-1	-1	2.000077e-001	0.0	188.988	-1	-1.000	-1
599	0	747.411	0	-1	-1	-1	-1	2.000077e-001	20.0	150.000	-1	-1.000	-1
600	0	748.610	0	-1	-1	-1	-1	2.000077e-001	0.0	3809.763	-1	-1.000	-1
601	0	749.811	0	-1	-1	-1	-1	2.000077e-001	10.0	15239.050	-1	-1.000	-1
602	0	751.112	0	-1	-1	-1	-1	2.000077e-001	40.0	1200.000	-1	-1.000	-1
603	0	752.411	0	-1	-1	-1	-1	2.000077e-001	30.0	150.000	-1	-1.000	-1
604	0	753.711	0	-1	-1	-1	-1	2.000077e-001	10.0	1904.881	-1	-1.000	-1
605	0	755.011	0	-1	-1	-1	-1	2.000077e-001	40.0	188.988	-1	-1.000	-1
606	0	756.311	0	-1	-1	-1	-1	2.000077e-001	10.0	7619.525	-1	-1.000	-1
607	0	757.610	0	-1	-1	-1	-1	2.000077e-001	0.0	1904.881	-1	-1.000	-1
608	0	758.811	0	-1	-1	-1	-1	2.000077e-001	30.0	19200.000	-1	-1.000	-1
609	0	760.113	0	-1	-1	-1	-1	2.000077e-001	30.0	4800.000	-1	-1.000	-1
610	0	761.420	0	-1	-1	-1	-1	2.000077e-001	40.0	238.110	-1	-1.000	-1
611	0	762.731	0	-1	-1	-1	-1	2.000077e-001	30.0	600.000	-1	-1.000	-1
612	0	764.011	0	-1	-1	-1	-1	2.000077e-001	10.0	3809.763	-1	-1.000	-1
613	0	765.211	0	-1	-1	-1	-1	2.000077e-001	10.0	600.000	-1	-1.000	-1
614	0	766.411	0	-1	-1	-1	-1	2.000077e-001	0.0	1200.000	-1	-1.000	-1
615	0	767.611	0	-1	-1	-1	-1	2.000077e-001	20.0	7619.525	-1	-1.000	-1
616	0	768.811	0	-1	-1	-1	-1	2.000077e-001	30.0	3809.763	-1	-1.000	-1
617	0	770.011	0	-1	-1	-1	-1	2.000077e-001	20.0	188.988	-1	-1.000	-1
618	0	771.211	0	-1	-1	-1	-1	2.000077e-001	0.0	2400.000	-1	-1.000	-1
619	0	772.411	0	-1	-1	-1	-1	2.000077e-001	0.0	6047.621	-1	-1.000	-1
620	0	773.612	0	-1	-1	-1	-1	2.000077e-001	40.0	476.220	-1	-1.000	-1
621	0	774.911	0	-1	-1	-1	-1	2.000077e-001	20.0	3023.811	-1	-1.000	-1
622	0	776.211	0	-1	-1	-1	-1	2.000077e-001	30.0	1511.905	-1	-1.000	-1
623	0	777.511	0	-1	-1	-1	-1	2.000077e-001	0.0	755.953	-1	-1.000	-1
624	0	778.811	0	-1	-1	-1	-1	2.000077e-001	40.0	15239.050	-1	-1.000	-1
625	0	780.111	0	-1	-1	-1	-1	2.000077e-001	0.0	19200.000	-1	-1.000	-1
626	0	781.411	0	-1	-1	-1	-1	2.000077e-001	10.0	19200.000	-1	-1.000	-1
627	0	782.715	0	-1	-1	-1	-1	2.000077e-001	0.0	15239.050	-1	-1.000	-1
628	0	784.034	0	-1	-1	-1	-1	2.000077e-001	0.0	12095.242	-1	-1.000	-1
629	0	785.329	0	-1	-1	-1	-1	2.000077e-001	40.0	6047.621	-1	-1.000	-1
630	0	786.611	0	-1	-1	-1	-1	2.000077e-001	10.0	3023.811	-1	-1.000	-1
631	0	787.812	0	-1	-1	-1	-1	2.000077e-001	40.0	4800.000	-1	-1.000	-1
632	0	789.012	0	-1	-1	-1	-1	2.000077e-001	40.0	19200.000	-1	-1.000	-1
633	0	790.212	0	-1	-1	-1	-1	2.000077e-001	0.0	4800.000	-1	-1.000	-1
634	0	791.412	0	-1	-1	-1	-1	2.000077e-001	0.0	9600.000	-1	-1.000	-1
635	0	792.611	0	-1	-1	-1	-1	2.000077e-001	30.0	6047.621	-1	-1.000	-1
636	0	793.811	0	-1	-1	-1	-1	2.000077e-001	0.0	377.976	-1	-1.000	-1
637	0	795.111	0	-1	-1	-1	-1	2.000077e-001	10.0	12095.242	-1	-1.000	-1
638	0	796.412	0	-1	-1	-1	-1	2.000077e-001	40.0	952.441	-1	-1.000	-1
